Folder: exp/FSRI_Materials

File: FSRI_XPS_Foam_Board-25.csv
Time,HRRPUA
0.0,0.0
160.152,0.0
163.421,68.9
166.853,199.8
170.285,295.1
173.717,371.8
177.15,451.8
180.582,509.6
184.014,528.7
187.446,515.6
190.878,479.0
194.311,433.0
197.743,385.8
201.175,347.3
204.607,317.4
208.039,291.6
211.472,266.8
214.904,237.6
218.336,204.3
221.768,171.2
225.2,139.0
228.633,109.1
232.065,82.8
235.497,60.8
238.929,44.9
242.361,34.2
245.794,26.3
249.226,20.0
252.658,13.5
256.09,6.4
259.522,1.5
262.955,0.0
266.387,0.0
269.819,0.0
273.251,0.0
276.683,0.0
280.116,0.0
283.548,0.0
286.98,0.0
290.412,0.0
293.845,0.0
297.277,0.0
300.709,0.0
304.141,0.0
307.573,0.0
311.006,0.0
314.438,0.0
317.87,0.0
321.302,0.0
324.734,0.0
328.167,0.0
331.599,0.0
335.031,0.0
338.463,0.0
341.895,0.0
345.328,0.0
348.76,0.0
352.192,0.0
355.624,0.0
359.056,0.0
362.489,0.0
365.921,0.0
369.353,0.0
372.785,0.0
376.217,0.0
379.65,0.0
383.082,0.0
386.514,0.0
389.946,0.0
393.378,0.0
396.811,0.0
400.243,0.0
403.675,0.0
407.107,0.0
410.539,0.0
413.972,0.0
417.404,0.0
420.836,0.0
424.268,0.0
427.7,0.0
431.133,0.0
434.565,0.0
437.997,0.0
441.429,0.0
444.861,0.0
448.294,0.0
451.726,0.0
455.158,0.0
458.59,0.0
462.022,0.0
465.455,0.0
468.887,0.0
472.319,0.0
475.751,0.0
479.183,0.0
482.616,0.0
486.048,0.0
489.48,0.0
492.912,0.0
496.345,0.0
499.777,0.0
503.209,0.0
506.641,0.0
510.073,0.0
513.506,0.0
516.938,0.0
520.37,0.0
523.802,0.0
527.234,0.0
530.667,0.0
534.099,0.0
537.531,0.0
540.963,0.0
544.395,0.0
547.828,0.0
551.26,0.0
554.692,0.0
558.124,0.0
561.556,0.0
564.989,0.0
568.421,0.0

File: FSRI_XPS_Foam_Board-50.csv
Time,HRRPUA
0.0,0.0
17.056,0.0
17.404,58.8
19.6768,160.6
21.9495,222.2
24.2222,291.0
26.495,382.9
28.7677,502.0
31.0404,653.2
33.3131,782.5
35.5859,866.4
37.8586,908.9
40.1313,901.9
42.404,855.5
44.6768,773.5
46.9495,674.6
49.2222,568.4
51.495,469.0
53.7677,387.0
56.0404,316.1
58.3131,251.1
60.5859,197.4
62.8586,153.8
65.1313,116.1
67.404,87.4
69.6768,66.4
71.9495,49.0
74.2222,36.9
76.495,27.8
78.7677,21.2
81.0404,15.7
83.3131,12.4
85.5859,10.9
87.8586,9.3
90.1313,7.7
92.404,6.0
94.6768,3.5
96.9495,0.6
99.2222,0.0
101.495,0.0
103.768,0.0
106.04,0.0
108.313,0.0
110.586,0.0
112.859,0.0
115.131,0.0
117.404,0.0
119.677,0.0
121.949,0.0
124.222,0.0
126.495,0.0
128.768,0.0
131.04,0.0
133.313,0.0
135.586,0.0
137.859,0.0
140.131,0.0
142.404,0.0
144.677,0.0
146.949,0.0
149.222,0.0
151.495,0.0
153.768,0.0
156.04,0.0
158.313,0.0
160.586,0.0
162.859,0.0
165.131,0.0
167.404,0.0
169.677,0.0
171.949,0.0
174.222,0.0
176.495,0.0
178.768,0.0
181.04,0.0
183.313,0.0
185.586,0.0
187.859,0.0
190.131,0.0
192.404,0.0
194.677,0.0
196.949,0.0
199.222,0.0
201.495,0.0
203.768,0.0
206.04,0.0
208.313,0.0
210.586,0.0
212.859,0.0
215.131,0.0
217.404,0.0
219.677,0.0
221.949,0.0
224.222,0.0
226.495,0.0
228.768,0.0
231.04,0.0
233.313,0.0
235.586,0.0
237.859,0.0
240.131,0.0
242.404,0.0

File: FSRI_XPS_Foam_Board-75.csv
Time,HRRPUA
0.0,0.0
4.70542,0.0
4.80145,63.9
7.33666,191.9
9.87187,276.7
12.4071,401.1
14.9423,583.9
17.4775,863.0
20.0127,1142.4
22.5479,1305.8
25.0831,1326.1
27.6183,1184.7
30.1536,929.6
32.6888,635.2
35.224,397.0
37.7592,232.6
40.2944,133.5
42.8296,78.1
45.3648,46.1
47.9,28.6
50.4353,19.7
52.9705,14.2
55.5057,9.2
58.0409,2.4
60.5761,0.0
63.1113,0.0
65.6465,0.0
68.1817,0.0
70.7169,0.0
73.2522,0.0
75.7874,0.0
78.3226,0.0
80.8578,0.0
83.393,0.0
85.9282,0.0
88.4634,0.0
90.9986,0.0
93.5338,0.0
96.0691,0.0
98.6043,0.0
101.139,0.0
103.675,0.0
106.21,0.0
108.745,0.0
111.28,0.0
113.816,0.0
116.351,0.0
118.886,0.0
121.421,0.0
123.956,0.0
126.492,0.0
129.027,0.0
131.562,0.0
134.097,0.0
136.632,0.0
139.168,0.0
141.703,0.0
144.238,0.0
146.773,0.3
149.308,0.4
151.844,0.2
154.379,0.0
156.914,0.0
159.449,0.0
161.985,0.0
164.52,0.0
167.055,0.0
169.59,0.0
172.125,0.0
174.661,0.0
177.196,0.0
179.731,0.0
182.266,0.0
184.801,0.0