Folder: exp/Scaling_Pyrolysis

File: FSRI_XPS_Foam_Board-25.csv
Time,HRRPUA
0.0,0.0
141.75,0.0
157.5,4.18034
159.764,24.1136
162.028,64.425
164.292,121.07
166.557,188.258
168.821,255.067
171.085,315.341
173.349,369.039
175.613,418.754
177.877,462.614
180.142,497.237
182.406,517.188
184.67,521.442
186.934,512.642
189.198,493.882
191.462,468.396
193.726,438.162
195.991,408.302
198.255,379.964
200.519,354.375
202.783,332.298
205.047,313.596
207.311,296.106
209.575,279.236
211.84,261.567
214.104,242.643
216.368,221.835
218.632,200.445
220.896,178.388
223.16,156.87
225.425,136.211
227.689,116.659
229.953,98.1093
232.217,81.6574
234.481,67.2176
236.745,54.8881
239.009,45.1603
241.274,37.4797
243.538,31.2807
245.802,26.2951
248.066,21.9754
250.33,18.1179
252.594,14.8047
254.858,11.8612
257.123,9.30989
259.387,7.20979
261.651,5.48011
263.915,4.13635
266.179,3.04181
268.443,2.11528
270.708,1.40497
272.972,0.832814
275.236,0.408037
277.5,0.175401
279.764,0.0653828
282.028,0.0184022
284.292,0.0
286.557,0.0
288.821,0.0
291.085,0.0
293.349,0.0
295.613,0.0
297.877,0.0
300.142,0.0
302.406,0.0
304.67,0.0
306.934,0.0
309.198,0.0
311.462,0.0
313.726,0.0
315.991,0.0
318.255,0.0
320.519,0.0
322.783,0.0
325.047,0.0
327.311,0.0
329.575,0.0
331.84,0.0
334.104,0.0
336.368,0.0
338.632,0.0
340.896,0.0
343.16,0.0
345.425,0.0
347.689,0.0
349.953,0.0
352.217,0.0
354.481,0.0
356.745,0.0
359.009,0.0
361.274,0.0
363.538,0.0
365.802,0.0
368.066,0.0
370.33,0.0
372.594,0.0
374.858,0.0
377.123,0.0
379.387,0.0
381.651,0.0
383.915,0.0
386.179,0.0
388.443,0.0
390.708,0.0
392.972,0.0
395.236,0.0
397.5,0.0

File: FSRI_XPS_Foam_Board-50.csv
Time,HRRPUA
0.0,0.0
10.35,0.0
11.5,5.56383
13.3261,23.7472
15.1522,52.6685
16.9783,90.4762
18.8043,136.688
20.6304,194.013
22.4565,255.169
24.2826,322.174
26.1087,401.413
27.9348,493.359
29.7609,590.805
31.587,685.476
33.413,770.778
35.2391,834.405
37.0652,870.652
38.8913,877.985
40.7174,859.925
42.5435,818.189
44.3696,758.982
46.1957,687.341
48.0217,609.974
49.8478,533.255
51.6739,459.857
53.5,392.006
55.3261,331.722
57.1522,279.319
58.9783,232.716
60.8043,191.274
62.6304,155.741
64.4565,126.134
66.2826,101.51
68.1087,80.8889
69.9348,64.4266
71.7609,51.6286
73.587,41.5776
75.413,33.5319
77.2391,27.3888
79.0652,22.7563
80.8913,19.1068
82.7174,16.0524
84.5435,13.5139
86.3696,11.4372
88.1957,9.66872
90.0217,7.96609
91.8478,6.32042
93.6739,4.86366
95.5,3.52493
97.3261,2.35201
99.1522,1.38677
100.978,0.749246
102.804,0.356351
104.63,0.130539
106.457,0.0216351
108.283,0.00437162
110.109,0.00437162
111.935,0.00437162
113.761,0.00437162
115.587,0.00366751
117.413,0.0
119.239,0.0
121.065,0.0
122.891,0.0
124.717,0.0
126.543,0.0
128.37,0.0
130.196,0.0
132.022,0.0
133.848,0.0
135.674,0.0
137.5,0.0
139.326,0.0
141.152,0.0
142.978,0.0
144.804,0.0
146.63,0.0
148.457,0.0
150.283,0.0
152.109,0.0
153.935,0.0
155.761,0.0
157.587,0.0
159.413,0.0
161.239,0.0
163.065,0.0
164.891,0.0
166.717,0.0
168.543,0.0
170.37,0.0
172.196,0.0
174.022,0.00201213
175.848,0.00201213
177.674,0.00201213
179.5,0.00201213
181.326,0.00201213
183.152,0.00201213
184.978,0.0
186.804,0.0
188.63,0.0
190.457,0.0
192.283,0.0
194.109,0.0
195.935,0.0
197.761,0.0
199.587,0.0
201.413,0.0
203.239,0.0
205.065,0.0
206.891,0.0
208.717,0.0
210.543,0.0
212.37,0.0
214.196,0.0
216.022,0.0
217.848,0.0
219.674,0.0
221.5,0.0

File: FSRI_XPS_Foam_Board-75.csv
Time,HRRPUA
0.0,0.0
0.225,0.0
0.25,14.7088
1.22297,27.914
2.19595,44.6705
3.16892,64.5728
4.14189,87.2346
5.11486,112.684
6.08784,141.729
7.06081,175.568
8.03378,215.231
9.00676,258.988
9.97973,305.172
10.9527,355.06
11.9257,411.935
12.8986,477.102
13.8716,550.851
14.8446,631.413
15.8176,717.923
16.7905,807.892
17.7635,895.439
18.7365,978.606
19.7095,1057.8
20.6824,1127.13
21.6554,1184.05
22.6284,1221.47
23.6014,1237.64
24.5743,1236.68
25.5473,1215.61
26.5203,1174.2
27.4932,1118.65
28.4662,1046.49
29.4392,965.227
30.4122,877.005
31.3851,783.213
32.3581,689.578
33.3311,598.869
34.3041,512.633
35.277,433.371
36.25,361.782
37.223,299.249
38.1959,246.19
39.1689,201.152
40.1419,163.613
41.1149,132.663
42.0878,107.558
43.0608,87.3038
44.0338,71.2653
45.0068,58.4363
45.9797,48.2717
46.9527,40.1047
47.9257,33.5389
48.8986,28.2266
49.8716,23.9742
50.8446,20.6407
51.8176,18.0388
52.7905,15.9396
53.7635,14.2234
54.7365,12.7889
55.7095,11.5526
56.6824,10.4818
57.6554,9.56992
58.6284,8.80364
59.6014,8.14466
60.5743,7.56008
61.5473,7.00889
62.5203,6.50721
63.4932,6.04824
64.4662,5.63469
65.4392,5.29032
66.4122,5.01236
67.3851,4.77626
68.3581,4.56287
69.3311,4.36381
70.3041,4.18165
71.277,4.01592
72.25,3.8654
73.223,3.72429
74.1959,3.57811
75.1689,3.42059
76.1419,3.24549
77.1149,3.05943
78.0878,2.86441
79.0608,2.67608
80.0338,2.49659
81.0068,2.32017
81.9797,2.13605
82.9527,1.94146
83.9257,1.75838
84.8986,1.59302
85.8716,1.44434
86.8446,1.31137
87.8176,1.19161
88.7905,1.08758
89.7635,0.996449
90.7365,0.91849
91.7095,0.854853
92.6824,0.804986
93.6554,0.772194
94.6284,0.741793
95.6014,0.703265
96.5743,0.649811
97.5473,0.589887
98.5203,0.527537
99.4932,0.466526
100.466,0.406319
101.439,0.344571
102.412,0.288759
103.385,0.234555
104.358,0.17436
105.331,0.120549
106.304,0.0852366
107.277,0.0746143
108.25,0.0742036
109.223,0.0867457
110.196,0.107042
111.169,0.132543
112.142,0.160919
113.115,0.1822
114.088,0.200065
115.061,0.220254
116.034,0.237324
117.007,0.248521
117.98,0.25182
118.953,0.249433
119.926,0.236371
120.899,0.215992
121.872,0.194724
122.845,0.183799
123.818,0.186742
124.791,0.190177
125.764,0.192315
126.736,0.19376
127.709,0.194784
128.682,0.19388
129.655,0.189065
130.628,0.181495
131.601,0.171806
132.574,0.15236
133.547,0.126482
134.52,0.109858
135.493,0.106222
136.466,0.11039
137.439,0.118155
138.412,0.129425
139.385,0.149588
140.358,0.181122
141.331,0.222384
142.304,0.270177
143.277,0.319436
144.25,0.354016
145.223,0.374252
146.196,0.386
147.169,0.379848
148.142,0.35532
149.115,0.327695
150.088,0.29475
151.061,0.253624
152.034,0.20668
153.007,0.155544
153.98,0.109206
154.953,0.0700122
155.926,0.0353613
156.899,0.00728216
157.872,0.0
158.845,0.0
159.818,0.0
160.791,0.0
161.764,0.0
162.736,0.0
163.709,0.0
164.682,0.0
165.655,0.0
166.628,0.0
167.601,0.0
168.574,0.0
169.547,0.0
170.52,0.0
171.493,0.0
172.466,0.0
173.439,0.0
174.412,0.0
175.385,0.0
176.358,0.0
177.331,0.0
178.304,0.0
179.277,0.0
180.25,0.0